<?xml version="1.0" encoding="UTF-8"?>
<!-- 2024-10-22 11:28 PSI-->
<Bundle xmlns="http://hl7.org/fhir">
	<id value="ex37"/>
	<meta>
		<profile value="https://www.ehealth.fgov.be/standards/fhir/mycarenet/StructureDefinition/be-eagreementdemandreply"/>
	</meta>
	<type value="message"/>
	<timestamp value="2015-07-14T11:15:37+02:00"/>
	<entry>
		<fullUrl value="urn:uuid:667b18ce-3d37-4581-9baa-6fada338038c"/>
		<resource>
			<MessageHeader>
				<id value="667b18ce-3d37-4581-9baa-6fada338038c"/>
				<meta>
					<profile value="https://www.ehealth.fgov.be/standards/fhir/mycarenet/StructureDefinition/be-messageheader"/>
				</meta>
				<eventCoding>
					<system value="https://www.ehealth.fgov.be/standards/fhir/mycarenet/CodeSystem/message-events"/>
					<code value="claimresponse-cancel"/>
				</eventCoding>
				<destination>
					<endpoint value="urn:be:fgov:ehealth:1.0:hospital:nihii-number:71000436000"/>
					<receiver>
						<reference value="urn:uuid:e2c6f73a-74d8-40f2-af0b-a61ad20c53d4"/>
					</receiver>
				</destination>
				<sender>
					<reference value="urn:uuid:cfabb40d-a53f-4c56-bc19-725ea669b358"/>
				</sender>
				<source>
					<endpoint value="urn:be:fgov:kbo-bce:organization:cbe-number:0411724220"/>
				</source>
				<response>
					<identifier value="267b18ce-3d37-4581-9baa-6fada338038b"/>
					<code value="ok"/>
				</response>
				<focus>
					<reference value="urn:uuid:0a0d60df-0340-45a6-a493-a5d67f74d693"/>
				</focus>
			</MessageHeader>
		</resource>
	</entry>
	<entry>
		<fullUrl value="urn:uuid:1dc5d974-5447-4afe-a4ab-57081ca518c3"/>
		<resource>
			<PractitionerRole>
				<id value="1dc5d974-5447-4afe-a4ab-57081ca518c3"/>
				<meta>
					<profile value="https://www.ehealth.fgov.be/standards/fhir/core/StructureDefinition/be-practitionerrole"/>
				</meta>
				<practitioner>
					<reference value="urn:uuid:03972cc4-d781-4285-8d79-0f05810e1931"/>
				</practitioner>
				<code>
					<coding>
						<system value="https://www.ehealth.fgov.be/standards/fhir/core/CodeSystem/cd-hcparty"/>
						<code value="persphysician"/>
					</coding>
				</code>
			</PractitionerRole>
		</resource>
	</entry>
	<entry>
		<fullUrl value="urn:uuid:03972cc4-d781-4285-8d79-0f05810e1931"/>
		<resource>
			<Practitioner>
				<id value="03972cc4-d781-4285-8d79-0f05810e1931"/>
				<meta>
					<profile value="https://www.ehealth.fgov.be/standards/fhir/core/StructureDefinition/be-practitioner"/>
				</meta>
				<identifier>
					<system value="https://www.ehealth.fgov.be/standards/fhir/core/NamingSystem/nihdi"/>
					<value value="19234011004"/>
				</identifier>
				<name>
					<family value="Smith"/>
					<given value="John"/>
				</name>
			</Practitioner>
		</resource>
	</entry>
	<!--be-organization - hospital-->
	<entry>
		<fullUrl value="urn:uuid:e2c6f73a-74d8-40f2-af0b-a61ad20c53d4"/>
		<resource>
			<Organization>
				<id value="e2c6f73a-74d8-40f2-af0b-a61ad20c53d4"/>
				<meta>
					<profile value="https://www.ehealth.fgov.be/standards/fhir/core/StructureDefinition/be-organization"/>
				</meta>
				<identifier>
					<system value="https://www.ehealth.fgov.be/standards/fhir/core/NamingSystem/nihdi"/>
					<value value="71000436000"/>
				</identifier>
				<type>
					<coding>
						<system value="https://www.ehealth.fgov.be/standards/fhir/core/CodeSystem/cd-hcparty"/>
						<code value="orghospital"/>
					</coding>
				</type>
			</Organization>
		</resource>
	</entry>
	<!-- be-organization - IO-->	
	<entry>
		<fullUrl value="urn:uuid:cfabb40d-a53f-4c56-bc19-725ea669b358"/>
		<resource>
			<Organization>
				<id value="cfabb40d-a53f-4c56-bc19-725ea669b358"/>
				<meta>
					<profile value="https://www.ehealth.fgov.be/standards/fhir/core/StructureDefinition/be-organization"/>
				</meta>
				<identifier>
					<system value="https://www.ehealth.fgov.be/standards/fhir/core/NamingSystem/insurancenumber"/>
					<value value="300"/>
				</identifier>
				<name value="Union Nationale des Mutualités Socialistes - Nationaal Verbond van de Socialistische Mutualiteiten"/>
			</Organization>
		</resource>
	</entry>
	<entry>
		<fullUrl value="urn:uuid:a52efcb6-1f81-4333-a115-d45bd3183686"/>
		<resource>
			<Patient>
				<id value="a52efcb6-1f81-4333-a115-d45bd3183686"/>
				<meta>
					<profile value="https://www.ehealth.fgov.be/standards/fhir/core/StructureDefinition/be-patient"/>
				</meta>
				<identifier>
					<system value="https://www.ehealth.fgov.be/standards/fhir/core/NamingSystem/insurancymembership"/>
					<value value="n° inscription mutualiste"/>
					<assigner>
						<identifier>
							<system value="https://www.ehealth.fgov.be/standards/fhir/core/NamingSystem/insurancenumber"/>
							<value value="n° mutualité"/>
						</identifier>
					</assigner>
				</identifier>
				<name>
					<family value="Dupont"/>
					<given value="Jean"/>
				</name>
				<gender value="male"/>
			</Patient>
		</resource>
	</entry>
	<entry>
		<fullUrl value="urn:uuid:0a0d60df-0340-45a6-a493-a5d67f74d693"/>
		<resource>
			<ClaimResponse>
				<id value="0a0d60df-0340-45a6-a493-a5d67f74d693"/>
				<meta>
					<profile value="https://www.ehealth.fgov.be/standards/fhir/mycarenet/StructureDefinition/be-eagreementclaimresponse"/>
				</meta>
				<status value="cancelled"/>
				<type>
					<coding>
						<system value="http://terminology.hl7.org/CodeSystem/claim-type"/>
						<code value="professional"/>
					</coding>
				</type>
				<subType>
					<coding>
						<system value="https://www.ehealth.fgov.be/standards/fhir/mycarenet/CodeSystem/agreement-types"/>
						<code value="rehabilitation-convention"/>
					</coding>
				</subType>
				<use value="preauthorization"/>
				<patient>
					<reference value="urn:uuid:a52efcb6-1f81-4333-a115-d45bd3183686"/>
				</patient>
				<created value="2015-07-14T11:15:35+02:00"/>
				<insurer>
					<reference value="urn:uuid:cfabb40d-a53f-4c56-bc19-725ea669b358"/>
				</insurer>
				<requestor>
					<reference value="urn:uuid:1dc5d974-5447-4afe-a4ab-57081ca518c3"/>
				</requestor>
				<outcome value="complete"/>
				<preAuthRef value="business_identifier cancelled"/>
			</ClaimResponse>
		</resource>
	</entry>
</Bundle>