<?xml version="1.0" encoding="UTF-8"?>

<Bundle xmlns="http://hl7.org/fhir">
  <id value="ex13"/>
  <meta>
    <profile value="https://www.ehealth.fgov.be/standards/fhir/mycarenet/StructureDefinition/be-eagreementconsultreply"/>
  </meta>
  <type value="message"/>
  <timestamp value="2015-07-14T11:15:37+02:00"/>
  <entry>
    <fullUrl value="urn:uuid:667b18ce-3d37-4581-9baa-6fada338038c"/>
    <resource>
      <MessageHeader>
        <id value="667b18ce-3d37-4581-9baa-6fada338038c"/>
        <meta>
          <profile value="https://www.ehealth.fgov.be/standards/fhir/mycarenet/StructureDefinition/be-messageheader"/>
        </meta>
        <eventCoding>
          <system value="http://hl7.org/fhir/restful-interaction"/>
          <code value="search-type"/>
        </eventCoding>
        <destination>
          <endpoint value="urn:be:fgov:person:ssin:ehealth:1.0:physiotherapist:nihii11:54263481527"/>
          <receiver>
            <reference value="urn:uuid:1dc5d974-5447-4afe-a4ab-57081ca518c3"/>
          </receiver>
        </destination>
        <sender>
          <reference value="urn:uuid:cfabb40d-a53f-4c56-bc19-725ea669b358"/>
        </sender>
        <source>
          <endpoint value="urn:be:fgov:kbo-bce:organization:cbe-number:0411724220"/>
        </source>
        <response>
          <identifier value="267b18ce-3d37-4581-9baa-6fada338038b"/>
          <code value="ok"/>
        </response>
        <focus>
          <reference value="urn:uuid:03972cc4-d781-4285-8d79-0f05810e1939"/>
        </focus>
      </MessageHeader>
    </resource>
  </entry>
  <entry>
    <fullUrl value="urn:uuid:cfabb40d-a53f-4c56-bc19-725ea669b358"/>
    <resource>
      <Organization>
        <id value="cfabb40d-a53f-4c56-bc19-725ea669b358"/>
        <meta>
          <profile value="https://www.ehealth.fgov.be/standards/fhir/core/StructureDefinition/be-organization"/>
        </meta>
        <identifier>
          <system value="https://www.ehealth.fgov.be/standards/fhir/core/NamingSystem/insurancenumber"/>
          <value value="300"/>
        </identifier>
        <name value="Union Nationale des Mutualités Socialistes - Nationaal Verbond van de Socialistische Mutualiteiten"/>
      </Organization>
    </resource>
  </entry>
  <entry>
    <fullUrl value="urn:uuid:1dc5d974-5447-4afe-a4ab-57081ca518c3"/>
    <resource>
      <PractitionerRole>
        <id value="cfabb40d-a53f-4c56-bc19-725ea669b358"/>
        <meta>
          <profile value="https://www.ehealth.fgov.be/standards/fhir/core/StructureDefinition/be-practitionerrole"/>
        </meta>
        <practitioner>
          <reference value="urn:uuid:03972cc4-d781-4285-8d79-0f05810e1931"/>
        </practitioner>
        <code>
          <coding>
            <system value="https://www.ehealth.fgov.be/standards/fhir/core/CodeSystem/cd-hcparty"/>
            <code value="persphysiotherapist"/>
          </coding>
        </code>
      </PractitionerRole>
    </resource>
  </entry>
  <entry>
    <fullUrl value="urn:uuid:03972cc4-d781-4285-8d79-0f05810e1931"/>
    <resource>
      <Practitioner>
        <id value="03972cc4-d781-4285-8d79-0f05810e1931"/>
        <meta>
          <profile value="https://www.ehealth.fgov.be/standards/fhir/core/StructureDefinition/be-practitioner"/>
        </meta>
        <identifier>
          <system value="https://www.ehealth.fgov.be/standards/fhir/core/NamingSystem/nihdi"/>
          <value value="54263481527"/>
        </identifier>
        <name>
          <family value="Smith"/>
          <given value="John"/>
        </name>
      </Practitioner>
    </resource>
  </entry>
  <entry>
    <fullUrl value="urn:uuid:03972cc4-d781-4285-8d79-0f05810e1939"/>
    <resource>
      <Bundle>
        <id value="03972cc4-d781-4285-8d79-0f05810e1939"/>
        <type value="searchset"/>
        <total value="2"/>
        <link>
          <relation value="self"/>
          <url value="http://www.mycarenet.be/ClaimResponse?patient=a52efcb6-1f81-4333-a115-d45bd318368&amp;use=preauthorization&amp;subType:contains=physiotherapy"/>
        </link>
        <entry>
          <fullUrl value="urn:uuid:cfabb40d-a53f-4c56-bc19-725ea669b358"/>
          <resource>
            <Organization>
              <id value="cfabb40d-a53f-4c56-bc19-725ea669b358"/>
              <meta>
                <profile value="https://www.ehealth.fgov.be/standards/fhir/core/StructureDefinition/be-organization"/>
              </meta>
              <identifier>
                <system value="https://www.ehealth.fgov.be/standards/fhir/core/NamingSystem/insurancenumber"/>
                <value value="300"/>
              </identifier>
              <name value="Union Nationale des Mutualités Socialistes - Nationaal Verbond van de Socialistische Mutualiteiten"/>
            </Organization>
          </resource>
          <search>
            <mode value="include"/>
          </search>
        </entry>
        <entry>
          <fullUrl value="urn:uuid:1dc5d974-5447-4afe-a4ab-57081ca518c3"/>
          <resource>
            <PractitionerRole>
              <id value="1dc5d974-5447-4afe-a4ab-57081ca518c3"/>
              <meta>
                <profile value="https://www.ehealth.fgov.be/standards/fhir/core/StructureDefinition/be-practitionerrole"/>
              </meta>
              <practitioner>
                <reference value="urn:uuid:03972cc4-d781-4285-8d79-0f05810e1931"/>
              </practitioner>
              <code>
                <coding>
                  <system value="https://www.ehealth.fgov.be/standards/fhir/core/CodeSystem/cd-hcparty"/>
                  <code value="persphysiotherapist"/>
                </coding>
              </code>
            </PractitionerRole>
          </resource>
          <search>
            <mode value="include"/>
          </search>
        </entry>
        <entry>
          <fullUrl value="urn:uuid:03972cc4-d781-4285-8d79-0f05810e1931"/>
          <resource>
            <Practitioner>
              <id value="03972cc4-d781-4285-8d79-0f05810e1931"/>
              <meta>
                <profile value="https://www.ehealth.fgov.be/standards/fhir/core/StructureDefinition/be-practitioner"/>
              </meta>
              <identifier>
                <system value="https://www.ehealth.fgov.be/standards/fhir/core/NamingSystem/nihdi"/>
                <value value="54263481527"/>
              </identifier>
              <name>
                <family value="Smith"/>
                <given value="John"/>
              </name>
            </Practitioner>
          </resource>
          <search>
            <mode value="include"/>
          </search>
        </entry>
        <entry>
          <fullUrl value="urn:uuid:a52efcb6-1f81-4333-a115-d45bd3183686"/>
          <resource>
            <Patient>
              <id value="a52efcb6-1f81-4333-a115-d45bd318368"/>
              <meta>
                <profile value="https://www.ehealth.fgov.be/standards/fhir/core/StructureDefinition/be-patient"/>
              </meta>
              <identifier>
                <system value="https://www.ehealth.fgov.be/standards/fhir/core/NamingSystem/ssin"/>
                <value value="73031805784"/>
              </identifier>
              <name>
                <family value="Dupont"/>
                <given value="Jean"/>
              </name>
              <gender value="male"/>
            </Patient>
          </resource>
          <search>
            <mode value="include"/>
          </search>
        </entry>
        <entry>
          <fullUrl value="urn:uuid:0a0d60df-0340-45a6-a493-a5d67f74d693"/>
          <resource>
            <ClaimResponse>
              <id value="0a0d60df-0340-45a6-a493-a5d67f74d693"/>
              <meta>
                <profile value="https://www.ehealth.fgov.be/standards/fhir/mycarenet/StructureDefinition/be-eagreementclaimresponse"/>
              </meta>
              <status value="active"/>
              <type>
                <coding>
                  <system value="http://terminology.hl7.org/CodeSystem/claim-type"/>
                  <code value="professional"/>
                </coding>
              </type>
              <subType>
                <coding>
                  <system value="https://www.ehealth.fgov.be/standards/fhir/mycarenet/CodeSystem/agreement-types"/>
                  <code value="physiotherapy-fb"/>
                </coding>
              </subType>
              <use value="preauthorization"/>
              <patient>
                <reference value="urn:uuid:a52efcb6-1f81-4333-a115-d45bd3183686"/>
              </patient>
              <created value="2015-07-14T11:15:30+02:00"/>
              <insurer>
                <reference value="urn:uuid:cfabb40d-a53f-4c56-bc19-725ea669b358"/>
              </insurer>
              <requestor>
                <reference value="urn:uuid:1dc5d974-5447-4afe-a4ab-57081ca518c3"/>
              </requestor>
              <outcome value="complete"/>
              <preAuthRef value="identifiant business de la décision (accord/refus/en traitement)"/>
              <preAuthPeriod>
                <start value="2020-01-15"/>
                <end value="2020-03-15"/>
              </preAuthPeriod>
              <addItem>
                <itemSequence value="1"/>
                <productOrService>
                  <coding>
                    <system value="https://www.ehealth.fgov.be/standards/fhir/mycarenet/CodeSystem/nihdi-physiotherapy-pathologysituationcode"/>
                    <code value="fb-51"/>
                  </coding>
                </productOrService>
                <adjudication>
                  <category>
                    <coding>
                      <system value="https://www.ehealth.fgov.be/standards/fhir/mycarenet/CodeSystem/decision-values"/>
                      <code value="agreement"/>
                    </coding>
                  </category>
                </adjudication>
              </addItem>
            </ClaimResponse>
          </resource>
          <search>
            <mode value="match"/>
          </search>
        </entry>
        <entry>
          <fullUrl value="urn:uuid:0a0d60df-0340-45a6-a493-a5d67f74d699"/>
          <resource>
            <ClaimResponse>
              <id value="0a0d60df-0340-45a6-a493-a5d67f74d699"/>
              <meta>
                <profile value="https://www.ehealth.fgov.be/standards/fhir/mycarenet/StructureDefinition/be-eagreementclaimresponse"/>
              </meta>
              <status value="active"/>
              <type>
                <coding>
                  <system value="http://terminology.hl7.org/CodeSystem/claim-type"/>
                  <code value="professional"/>
                </coding>
              </type>
              <subType>
                <coding>
                  <system value="https://www.ehealth.fgov.be/standards/fhir/mycarenet/CodeSystem/agreement-types"/>
                  <code value="physiotherapy-fb"/>
                </coding>
              </subType>
              <use value="preauthorization"/>
              <patient>
                <reference value="urn:uuid:a52efcb6-1f81-4333-a115-d45bd3183686"/>
              </patient>
              <created value="2015-07-14T11:15:30+02:00"/>
              <insurer>
                <reference value="urn:uuid:cfabb40d-a53f-4c56-bc19-725ea669b358"/>
              </insurer>
              <requestor>
                <reference value="urn:uuid:1dc5d974-5447-4afe-a4ab-57081ca518c3"/>
              </requestor>
              <outcome value="partial"/>
              <preAuthRef value="identifiant business de la décision (accord/refus/en traitement)"/>
              <addItem>
                <itemSequence value="1"/>
                <productOrService>
                  <coding>
                    <system value="https://www.ehealth.fgov.be/standards/fhir/mycarenet/CodeSystem/nihdi-physiotherapy-pathologysituationcode"/>
                    <code value="fb-51"/>
                  </coding>
                </productOrService>
                <adjudication>
                  <category>
                    <coding>
                      <system value="https://www.ehealth.fgov.be/standards/fhir/mycarenet/CodeSystem/decision-values"/>
                      <code value="intreatment"/>
                    </coding>
                  </category>
                </adjudication>
              </addItem>
            </ClaimResponse>
          </resource>
          <search>
            <mode value="match"/>
          </search>
        </entry>
      </Bundle>
    </resource>
  </entry>
</Bundle>