<?xml version="1.0" encoding="UTF-8"?>
<!-- 2024-10-22 11:28 PSI-->
<Bundle xmlns="http://hl7.org/fhir">
	<id value="ex36"/>
	<meta>
		<profile value="https://www.ehealth.fgov.be/standards/fhir/mycarenet/StructureDefinition/be-eagreementdemand"/>
	</meta>
	<type value="message"/>
	<timestamp value="2015-07-14T11:15:33+02:00"/>
	<entry>
		<fullUrl value="urn:uuid:267b18ce-3d37-4581-9baa-6fada338038b"/>
		<resource>
			<MessageHeader>
				<id value="267b18ce-3d37-4581-9baa-6fada338038b"/>
				<meta>
					<profile value="https://www.ehealth.fgov.be/standards/fhir/mycarenet/StructureDefinition/be-messageheader"/>
				</meta>
				<eventCoding>
					<system value="https://www.ehealth.fgov.be/standards/fhir/mycarenet/CodeSystem/message-events"/>
					<code value="claim-cancel"/>
				</eventCoding>
				<destination>
					<name value="MyCareNet"/>
					<endpoint value="urn:be:fgov:kbo-bce:organization:cbe-number:0820563481"/>
				</destination>
				<sender>
					<reference value="urn:uuid:e2c6f73a-74d8-40f2-af0b-a61ad20c53d4"/>
				</sender>
				<source>
					<endpoint value="urn:be:fgov:ehealth:1.0:hospital:nihii-number:71000436000"/>
				</source>
				<focus>
					<reference value="urn:uuid:e85173bc-6f0d-480b-a2cd-2b70d9ffff7a"/>
				</focus>
			</MessageHeader>
		</resource>
	</entry>
	<entry>
		<fullUrl value="urn:uuid:1dc5d974-5447-4afe-a4ab-57081ca518c3"/>
		<resource>
			<PractitionerRole>
				<id value="1dc5d974-5447-4afe-a4ab-57081ca518c3"/>
				<meta>
					<profile value="https://www.ehealth.fgov.be/standards/fhir/core/StructureDefinition/be-practitionerrole"/>
				</meta>
				<practitioner>
					<reference value="urn:uuid:03972cc4-d781-4285-8d79-0f05810e1931"/>
				</practitioner>
				<code>
					<coding>
						<system value="https://www.ehealth.fgov.be/standards/fhir/core/CodeSystem/cd-hcparty"/>
						<code value="persphysician"/>
					</coding>
        </code>
			</PractitionerRole>
		</resource>
	</entry>
	<entry>
		<fullUrl value="urn:uuid:03972cc4-d781-4285-8d79-0f05810e1931"/>
		<resource>
			<Practitioner>
				<id value="03972cc4-d781-4285-8d79-0f05810e1931"/>
				<meta>
					<profile value="https://www.ehealth.fgov.be/standards/fhir/core/StructureDefinition/be-practitioner"/>
				</meta>
				<identifier>
					<system value="https://www.ehealth.fgov.be/standards/fhir/core/NamingSystem/nihdi"/>
					<value value="19234011004"/>
				</identifier>
				<name>
					<family value="Smith"/>
					<given value="John"/>
				</name>
			</Practitioner>
		</resource>
	</entry>
	<!--<Organization>-->
	<entry>
		<fullUrl value="urn:uuid:e2c6f73a-74d8-40f2-af0b-a61ad20c53d4"/>
		<resource>
			<Organization>
				<id value="e2c6f73a-74d8-40f2-af0b-a61ad20c53d4"/>
				<meta>
					<profile value="https://www.ehealth.fgov.be/standards/fhir/core/StructureDefinition/be-organization"/>
				</meta>
				<identifier>
					<system value="https://www.ehealth.fgov.be/standards/fhir/core/NamingSystem/nihdi"/>
					<value value="71000436000"/>
				</identifier>
				<type>
					<coding>
						<system value="https://www.ehealth.fgov.be/standards/fhir/core/CodeSystem/cd-hcparty"/>
						<code value="orghospital"/>
					</coding>
				</type>
			</Organization>
		</resource>
	</entry>
	<entry>
		<fullUrl value="urn:uuid:a52efcb6-1f81-4333-a115-d45bd3183686"/>
		<resource>
			<Patient>
				<id value="a52efcb6-1f81-4333-a115-d45bd3183686"/>
				<meta>
					<profile value="https://www.ehealth.fgov.be/standards/fhir/core/StructureDefinition/be-patient"/>
				</meta>
				<identifier>
					<system value="https://www.ehealth.fgov.be/standards/fhir/core/NamingSystem/ssin"/>
					<value value="79121137740"/>
				</identifier>
				<name>
					<family value="Dupont"/>
					<given value="Jean"/>
				</name>
				<gender value="male"/>
			</Patient>
		</resource>
	</entry>
	<entry>
		<fullUrl value="urn:uuid:e85173bc-6f0d-480b-a2cd-2b70d9ffff7a"/>
		<resource>
			<Claim>
				<id value="e85173bc-6f0d-480b-a2cd-2b70d9ffff7a"/>
				<meta>
					<profile value="https://www.ehealth.fgov.be/standards/fhir/mycarenet/StructureDefinition/be-eagreementclaim-light"/>
				</meta>
				<status value="active"/>
				<type>
					<coding>
						<system value="http://terminology.hl7.org/CodeSystem/claim-type"/>
						<code value="professional"/>
					</coding>
				</type>
				<subType>
					<coding>
						<system value="https://www.ehealth.fgov.be/standards/fhir/mycarenet/CodeSystem/agreement-types"/>
						<code value="rehabilitation-convention"/>
					</coding>
				</subType>
				<use value="preauthorization"/>
				<patient>
					<reference value="urn:uuid:a52efcb6-1f81-4333-a115-d45bd3183686"/>
				</patient>
				<created value="2015-07-14T11:15:30+02:00"/>
				<enterer>
					<reference value="urn:uuid:1dc5d974-5447-4afe-a4ab-57081ca518c3"/>
				</enterer>
				<provider>
					<reference value="urn:uuid:1dc5d974-5447-4afe-a4ab-57081ca518c3"/>
				</provider>
				<priority>
					<coding>
						<system value="http://terminology.hl7.org/CodeSystem/processpriority"/>
						<code value="normal"/>
					</coding>
				</priority>
				<insurance>
					<sequence value="1"/>
					<focal value="true"/>
					<coverage>
						<display value="use of mandatory insurance coverage, no further details provided here."/>
					</coverage>
					<preAuthRef value="business_identifier to cancel"/>
				</insurance>
			</Claim>
		</resource>
	</entry>
</Bundle>