<?xml version="1.0" encoding="UTF-8"?>

<Bundle xmlns="http://hl7.org/fhir">
  <id value="ex26"/>
  <meta>
    <profile value="https://www.ehealth.fgov.be/standards/fhir/mycarenet/StructureDefinition/be-eagreementconsult"/>
  </meta>
  <type value="message"/>
  <timestamp value="2015-07-14T11:15:33+02:00"/>
  <entry>
    <fullUrl value="urn:uuid:267b18ce-3d37-4581-9baa-6fada338038b"/>
    <resource>
      <MessageHeader>
        <id value="267b18ce-3d37-4581-9baa-6fada338038b"/>
        <meta>
          <profile value="https://www.ehealth.fgov.be/standards/fhir/mycarenet/StructureDefinition/be-messageheader"/>
        </meta>
        <eventCoding>
          <system value="http://hl7.org/fhir/restful-interaction"/>
          <code value="search-type"/>
        </eventCoding>
        <destination>
          <name value="MyCareNet"/>
          <endpoint value="urn:be:fgov:kbo-bce:organization:cbe-number:0820563481"/>
        </destination>
        <sender>
          <reference value="urn:uuid:1dc5d974-5447-4afe-a4ab-57081ca518c3"/>
        </sender>
        <source>
          <endpoint value="urn:be:fgov:person:ssin:ehealth:1.0:logopedist:nihii11:60567689801"/>
        </source>
        <focus>
          <reference value="urn:uuid:76076b8a-6ee1-4c84-9850-aca6fdf69757"/>
        </focus>
      </MessageHeader>
    </resource>
  </entry>
  <entry>
    <fullUrl value="urn:uuid:1dc5d974-5447-4afe-a4ab-57081ca518c3"/>
    <resource>
      <PractitionerRole>
        <id value="1dc5d974-5447-4afe-a4ab-57081ca518c3"/>
        <meta>
          <profile value="https://www.ehealth.fgov.be/standards/fhir/core/StructureDefinition/be-practitionerrole"/>
        </meta>
        <practitioner>
          <reference value="urn:uuid:03972cc4-d781-4285-8d79-0f05810e1931"/>
        </practitioner>
        <code>
          <coding>
            <system value="https://www.ehealth.fgov.be/standards/fhir/core/CodeSystem/cd-hcparty"/>
            <code value="perslogopedist"/>
          </coding>
        </code>
      </PractitionerRole>
    </resource>
  </entry>
  <entry>
    <fullUrl value="urn:uuid:03972cc4-d781-4285-8d79-0f05810e1931"/>
    <resource>
      <Practitioner>
        <id value="03972cc4-d781-4285-8d79-0f05810e1931"/>
        <meta>
          <profile value="https://www.ehealth.fgov.be/standards/fhir/core/StructureDefinition/be-practitioner"/>
        </meta>
        <identifier>
          <system value="https://www.ehealth.fgov.be/standards/fhir/core/NamingSystem/nihdi"/>
          <value value="60567689801"/>
        </identifier>
        <name>
          <family value="Smith"/>
          <given value="John"/>
        </name>
      </Practitioner>
    </resource>
  </entry>
  <entry>
    <fullUrl value="urn:uuid:76076b8a-6ee1-4c84-9850-aca6fdf69757"/>
    <resource>
      <Parameters>
        <id value="76076b8a-6ee1-4c84-9850-aca6fdf69757"/>
        <parameter>
          <name value="resourceType"/>
          <valueString value="ClaimResponse"/>
        </parameter>
        <parameter>
          <name value="patient"/>
          <valueReference>
            <reference value="urn:uuid:a52efcb6-1f81-4333-a115-d45bd3183686"/>
          </valueReference>
        </parameter>
        <parameter>
          <name value="use"/>
          <valueCode value="preauthorization"/>
        </parameter>
        <parameter>
          <name value="subType"/>
          <valueCoding>
            <system value="https://www.ehealth.fgov.be/standards/fhir/mycarenet/CodeSystem/agreement-types"/>
            <code value="speechtherapy"/>
          </valueCoding>
        </parameter>
        <parameter>
          <name value="preAuthRef"/>
          <valueString value="beslissingIdToConsult"/>
        </parameter>
      </Parameters>
    </resource>
  </entry>
  <entry>
    <fullUrl value="urn:uuid:a52efcb6-1f81-4333-a115-d45bd3183686"/>
    <resource>
      <Patient>
        <id value="a52efcb6-1f81-4333-a115-d45bd3183686"/>
        <meta>
          <profile value="https://www.ehealth.fgov.be/standards/fhir/core/StructureDefinition/be-patient"/>
        </meta>
        <identifier>
          <system value="https://www.ehealth.fgov.be/standards/fhir/core/NamingSystem/insurancymembership"/>
          <value value="n° inscription mutualiste"/>
          <assigner>
            <identifier>
              <system value="https://www.ehealth.fgov.be/standards/fhir/core/NamingSystem/insurancenumber"/>
              <value value="n° mutualité"/>
            </identifier>
          </assigner>
        </identifier>
        <name>
          <family value="Dupont"/>
          <given value="Jean"/>
        </name>
        <gender value="male"/>
      </Patient>
    </resource>
  </entry>
</Bundle>