<?xml version="1.0" encoding="UTF-8"?>

<Bundle xmlns="http://hl7.org/fhir">
  <id value="ex14"/>
  <meta>
    <profile value="https://www.ehealth.fgov.be/standards/fhir/mycarenet/StructureDefinition/be-eagreementdemand"/>
  </meta>
  <type value="message"/>
  <timestamp value="2015-07-14T11:15:33+02:00"/>
  <entry>
    <fullUrl value="urn:uuid:267b18ce-3d37-4581-9baa-6fada338038b"/>
    <resource>
      <MessageHeader>
        <id value="267b18ce-3d37-4581-9baa-6fada338038b"/>
        <meta>
          <profile value="https://www.ehealth.fgov.be/standards/fhir/mycarenet/StructureDefinition/be-messageheader"/>
        </meta>
        <eventCoding>
          <system value="https://www.ehealth.fgov.be/standards/fhir/mycarenet/CodeSystem/message-events"/>
          <code value="claim-completeAgreement"/>
        </eventCoding>
        <destination>
          <name value="MyCareNet"/>
          <endpoint value="urn:be:fgov:kbo-bce:organization:cbe-number:0820563481"/>
        </destination>
        <sender>
          <reference value="urn:uuid:1dc5d974-5447-4afe-a4ab-57081ca518c3"/>
        </sender>
        <source>
          <endpoint value="urn:be:fgov:person:ssin:ehealth:1.0:physiotherapist:nihii11:54263481527"/>
        </source>
        <focus>
          <reference value="urn:uuid:e85173bc-6f0d-480b-a2cd-2b70d9ffff7a"/>
        </focus>
      </MessageHeader>
    </resource>
  </entry>
  <entry>
    <fullUrl value="urn:uuid:1dc5d974-5447-4afe-a4ab-57081ca518c3"/>
    <resource>
      <PractitionerRole>
        <id value="1dc5d974-5447-4afe-a4ab-57081ca518c3"/>
        <meta>
          <profile value="https://www.ehealth.fgov.be/standards/fhir/core/StructureDefinition/be-practitionerrole"/>
        </meta>
        <practitioner>
          <reference value="urn:uuid:03972cc4-d781-4285-8d79-0f05810e1931"/>
        </practitioner>
        <code>
          <coding>
            <system value="https://www.ehealth.fgov.be/standards/fhir/core/CodeSystem/cd-hcparty"/>
            <code value="persphysiotherapist"/>
          </coding>
        </code>
      </PractitionerRole>
    </resource>
  </entry>
  <entry>
    <fullUrl value="urn:uuid:03972cc4-d781-4285-8d79-0f05810e1931"/>
    <resource>
      <Practitioner>
        <id value="03972cc4-d781-4285-8d79-0f05810e1931"/>
        <meta>
          <profile value="https://www.ehealth.fgov.be/standards/fhir/core/StructureDefinition/be-practitioner"/>
        </meta>
        <identifier>
          <system value="https://www.ehealth.fgov.be/standards/fhir/core/NamingSystem/nihdi"/>
          <value value="54263481527"/>
        </identifier>
        <name>
          <family value="Smith"/>
          <given value="John"/>
        </name>
      </Practitioner>
    </resource>
  </entry>
  <entry>
    <fullUrl value="urn:uuid:a52efcb6-1f81-4333-a115-d45bd3183686"/>
    <resource>
      <Patient>
        <id value="a52efcb6-1f81-4333-a115-d45bd3183686"/>
        <meta>
          <profile value="https://www.ehealth.fgov.be/standards/fhir/core/StructureDefinition/be-patient"/>
        </meta>
        <identifier>
          <system value="https://www.ehealth.fgov.be/standards/fhir/core/NamingSystem/insurancymembership"/>
          <value value="n° inscription mutualiste"/>
          <assigner>
            <identifier>
              <system value="https://www.ehealth.fgov.be/standards/fhir/core/NamingSystem/insurancenumber"/>
              <value value="n° mutualité"/>
            </identifier>
          </assigner>
        </identifier>
        <name>
          <family value="Dupont"/>
          <given value="Jean"/>
        </name>
        <gender value="male"/>
      </Patient>
    </resource>
  </entry>
  <entry>
    <fullUrl value="urn:uuid:035e3de4-011f-48a4-92c9-15b2bbcec321"/>
    <resource>
      <PractitionerRole>
        <id value="035e3de4-011f-48a4-92c9-15b2bbcec321"/>
        <meta>
          <profile value="https://www.ehealth.fgov.be/standards/fhir/core/StructureDefinition/be-practitionerrole"/>
        </meta>
        <practitioner>
          <reference value="urn:uuid:8fc72085-d349-4bd7-ba84-91a935a4e3c6"/>
        </practitioner>
        <code>
          <coding>
            <system value="https://www.ehealth.fgov.be/standards/fhir/core/CodeSystem/cd-hcparty"/>
            <code value="persphysician"/>
          </coding>
        </code>
      </PractitionerRole>
    </resource>
  </entry>
  <entry>
    <fullUrl value="urn:uuid:8fc72085-d349-4bd7-ba84-91a935a4e3c6"/>
    <resource>
      <Practitioner>
        <id value="8fc72085-d349-4bd7-ba84-91a935a4e3c6"/>
        <meta>
          <profile value="https://www.ehealth.fgov.be/standards/fhir/core/StructureDefinition/be-practitioner"/>
        </meta>
        <identifier>
          <system value="https://www.ehealth.fgov.be/standards/fhir/core/NamingSystem/nihdi"/>
          <value value="19234011004"/>
        </identifier>
        <name>
          <family value="Nom du prescripteur"/>
          <given value="Prénom du prescripteur"/>
        </name>
      </Practitioner>
    </resource>
  </entry>
  <entry>
    <fullUrl value="urn:uuid:b3586cda-f1e5-4c58-a389-94249957d87a"/>
    <resource>
      <ServiceRequest>
        <id value="b3586cda-f1e5-4c58-a389-94249957d87a"/>
        <meta>
          <profile value="https://www.ehealth.fgov.be/standards/fhir/mycarenet/StructureDefinition/be-eagreementservicerequest"/>
        </meta>
        <contained>
          <Binary>
            <id value="annexSR1"/>
            <contentType value="application/pdf"/>
            <data value="QW5uZXhlIGlubGluZSwgYmFzZTY0ZWQ="/>
          </Binary>
        </contained>
        <status value="active"/>
        <intent value="order"/>
        <category>
          <coding>
            <system value="http://snomed.info/sct"/>
            <code value="91251008"/>
            <display value="Physical therapy procedure"/>
          </coding>
        </category>
        <code>
          <coding>
            <system value="http://snomed.info/sct"/>
            <code value="91251008"/>
            <display value="Physical therapy procedure"/>
          </coding>
        </code>
        <quantityQuantity>
          <value value="15"/>
        </quantityQuantity>
        <subject>
          <reference value="urn:uuid:a52efcb6-1f81-4333-a115-d45bd3183686"/>
        </subject>
        <authoredOn value="2015-07-10"/>
        <requester>
          <reference value="urn:uuid:035e3de4-011f-48a4-92c9-15b2bbcec321"/>
        </requester>
        <supportingInfo>
          <reference value="#annexSR1"/>
        </supportingInfo>
      </ServiceRequest>
    </resource>
  </entry>
  <entry>
    <fullUrl value="urn:uuid:e85173bc-6f0d-480b-a2cd-2b70d9ffff7a"/>
    <resource>
      <Claim>
        <id value="e85173bc-6f0d-480b-a2cd-2b70d9ffff7a"/>
        <meta>
          <profile value="https://www.ehealth.fgov.be/standards/fhir/mycarenet/StructureDefinition/be-eagreementclaim-kine"/>
        </meta>
        <status value="active"/>
        <type>
          <coding>
            <system value="http://terminology.hl7.org/CodeSystem/claim-type"/>
            <code value="professional"/>
          </coding>
        </type>
        <subType>
          <coding>
            <system value="https://www.ehealth.fgov.be/standards/fhir/mycarenet/CodeSystem/agreement-types"/>
            <code value="physiotherapy-fb"/>
          </coding>
        </subType>
        <use value="preauthorization"/>
        <patient>
          <reference value="urn:uuid:a52efcb6-1f81-4333-a115-d45bd3183686"/>
        </patient>
        <created value="2015-07-14T11:15:30+02:00"/>
        <enterer>
          <reference value="urn:uuid:1dc5d974-5447-4afe-a4ab-57081ca518c3"/>
        </enterer>
        <provider>
          <reference value="urn:uuid:1dc5d974-5447-4afe-a4ab-57081ca518c3"/>
        </provider>
        <priority>
          <coding>
            <system value="http://terminology.hl7.org/CodeSystem/processpriority"/>
            <code value="stat"/>
          </coding>
        </priority>
        <referral>
          <reference value="urn:uuid:b3586cda-f1e5-4c58-a389-94249957d87a"/>
        </referral>
        <insurance>
          <sequence value="1"/>
          <focal value="true"/>
          <coverage>
            <display value="use of mandatory insurance coverage, no further details provided here."/>
          </coverage>
          <preAuthRef value="identifiant business de l'accord à compléter"/>
        </insurance>
      </Claim>
    </resource>
  </entry>
</Bundle>